{
    "resourceType": "Bundle",
    "type": "collection",
    "entry": [
      {
        "resource": {
          "resourceType": "Patient",
          "id": "patient-001",
          "name": [{ "use": "official", "family": "Doe", "given": ["Jane"] }],
          "gender": "female",
          "birthDate": "1983-04-12"
        }
      },
      {
        "resource": {
          "resourceType": "Encounter",
          "id": "encounter-001",
          "status": "finished",
          "class": { "system": "http://terminology.hl7.org/CodeSystem/v3-ActCode", "code": "AMB" },
          "subject": { "reference": "Patient/patient-001" },
          "period": {
            "start": "2023-10-20T09:00:00-04:00",
            "end": "2023-10-20T09:45:00-04:00"
          },
          "reasonCode": [{ "text": "Annual wellness visit" }]
        }
      },
      {
        "resource": {
          "resourceType": "Condition",
          "id": "condition-001",
          "clinicalStatus": { "coding": [{ "system": "http://terminology.hl7.org/CodeSystem/condition-clinical", "code": "active" }] },
          "code": { "coding": [{ "system": "http://snomed.info/sct", "code": "44054006", "display": "Diabetes mellitus type 2" }] },
          "subject": { "reference": "Patient/patient-001" },
          "onsetDateTime": "2019-06-15"
        }
      },
      {
        "resource": {
          "resourceType": "Observation",
          "id": "observation-001",
          "status": "final",
          "category": [{ "coding": [{ "system": "http://terminology.hl7.org/CodeSystem/observation-category", "code": "vital-signs" }] }],
          "code": { "coding": [{ "system": "http://loinc.org", "code": "85354-9", "display": "Blood pressure" }] },
          "subject": { "reference": "Patient/patient-001" },
          "effectiveDateTime": "2023-10-20T09:05:00-04:00",
          "component": [
            {
              "code": { "coding": [{ "system": "http://loinc.org", "code": "8480-6", "display": "Systolic blood pressure" }] },
              "valueQuantity": { "value": 132, "unit": "mmHg" }
            },
            {
              "code": { "coding": [{ "system": "http://loinc.org", "code": "8462-4", "display": "Diastolic blood pressure" }] },
              "valueQuantity": { "value": 88, "unit": "mmHg" }
            }
          ]
        }
      },
      {
        "resource": {
          "resourceType": "Observation",
          "id": "observation-002",
          "status": "final",
          "category": [{ "coding": [{ "system": "http://terminology.hl7.org/CodeSystem/observation-category", "code": "laboratory" }] }],
          "code": { "coding": [{ "system": "http://loinc.org", "code": "4548-4", "display": "Hemoglobin A1c" }] },
          "subject": { "reference": "Patient/patient-001" },
          "effectiveDateTime": "2023-10-15",
          "valueQuantity": { "value": 7.2, "unit": "%", "system": "http://unitsofmeasure.org", "code": "%" }
        }
      },
      {
        "resource": {
          "resourceType": "MedicationRequest",
          "id": "medreq-001",
          "status": "active",
          "intent": "order",
          "medicationCodeableConcept": {
            "coding": [{ "system": "http://www.nlm.nih.gov/research/umls/rxnorm", "code": "860975", "display": "Metformin 500 MG Oral Tablet" }]
          },
          "subject": { "reference": "Patient/patient-001" },
          "authoredOn": "2023-09-15",
          "dosageInstruction": [{
            "text": "Take 1 tablet twice daily with food"
          }]
        }
      },
      {
        "resource": {
          "resourceType": "AllergyIntolerance",
          "id": "allergy-001",
          "clinicalStatus": { "coding": [{ "system": "http://terminology.hl7.org/CodeSystem/allergyintolerance-clinical", "code": "active" }] },
          "code": {
            "coding": [{ "system": "http://snomed.info/sct", "code": "7982", "display": "Penicillin allergy" }]
          },
          "patient": { "reference": "Patient/patient-001" },
          "reaction": [{
            "manifestation": [{ "text": "Rash" }]
          }]
        }
      },
      {
        "resource": {
          "resourceType": "Immunization",
          "id": "imm-001",
          "status": "completed",
          "vaccineCode": {
            "coding": [{ "system": "http://hl7.org/fhir/sid/cvx", "code": "207", "display": "COVID-19, mRNA, LNP-S, PF, 100 mcg/0.5 mL dose" }]
          },
          "patient": { "reference": "Patient/patient-001" },
          "occurrenceDateTime": "2021-03-20"
        }
      },
      {
        "resource": {
          "resourceType": "Procedure",
          "id": "procedure-001",
          "status": "completed",
          "code": {
            "coding": [{ "system": "http://www.ama-assn.org/go/cpt", "code": "45378", "display": "Colonoscopy, diagnostic" }]
          },
          "subject": { "reference": "Patient/patient-001" },
          "performedDateTime": "2022-07-01"
        }
      },
      {
        "resource": {
          "resourceType": "DiagnosticReport",
          "id": "diagrep-001",
          "status": "final",
          "code": {
            "coding": [{ "system": "http://loinc.org", "code": "58410-2", "display": "Comprehensive metabolic panel" }]
          },
          "subject": { "reference": "Patient/patient-001" },
          "effectiveDateTime": "2023-10-15",
          "result": [
            { "reference": "Observation/observation-002" }
          ]
        }
      }
    ]
  }